Folder: Mitacs/Database/Code for parser/spectra

File: Raman_Horiba_Oil-BHT-0.8wt-NA-liquid-Q2-fresh_ATR_R02.txt
#Acq. time (s)=	15
#Accumulations=	1
#Range (cm-¹)=	400...3400
#Windows=	4
#Auto scanning=	Off
#Autofocus=	Off
#AutoExposure=	Off
#Spike filter=	Single accum. (Size=3)
#Delay time (s)=	0
#Binning=	1
#Readout mode=	Signal
#DeNoise=	Standard
#ICS correction=	Off
#Dark correction=	Off
#Inst. Process=	Off
#Detector Gain=	Best Dynamic Range
#Detector ADC=	1 MHz
#Detector temperature (°C)=	-59.98
#Instrument=	XploRA Plus
#Detector=	Syncerity
#Objective=	x20
#Grating=	1200 gr/mm
#Filter=	10%
#Laser (nm)=	785
#Slit (µm)=	100
#Hole (µm)=	100
#Fiber=	Off
#E-Cal_Neon=	0
#StageXY=	Marzhauser
#StageZ=	Marzhauser
#X (µm)=	0
#Y (µm)=	0
#Z (µm)=	-2961.75
#Spectral res.(cm-¹)=	3.2
#Full time(mm:ss)=	1:27
#AC=	Calibrated 2025-09-30 09:39
#Project=	Sydney
#Sample=	PET
#Site=	The
#Title=	Q2_emp_785_1200_20x_10%_15s_1t_2
#Remark=
#Date=	30.09.2025 10:35
#Acquired=	30.09.2025 10:35:40
#AxisType[0]=Intens
#AxisUnit[0]=Cnt
#AxisType[1]=Spectr
#AxisUnit[1]=1/cm
400.069	85.7087
415.79	92.3683
431.46	82.9441
447.079	82.7127
462.646	75.0473
478.163	84.9973
493.63	52.0556
509.045	64.2139
524.41	67.0498
539.724	71.2229
554.988	74.8069
570.201	72.2805
585.364	69.8096
600.477	74.1498
615.54	110.251
630.552	68.5611
645.515	61.1385
660.427	59.8898
675.291	63.8537
690.104	58.3198
704.867	61.7316
719.581	57.8075
734.246	70.7653
748.86	88.146
763.425	70.1863
777.942	74.2373
792.408	69.1195
806.827	60.534
821.195	59.3941
835.515	56.9311
849.787	50.254
864.009	46.4372
878.182	49.0912
892.307	42.1918
906.384	41.7536
920.412	40.8601
934.391	35.7787
948.323	35.6664
962.206	38.1619
976.041	40.5366
989.828	83.6789
1003.57	288.358
1017.26	44.6021
1030.9	126.061
1044.5	42.2236
1058.04	37.9038
1071.54	39.6997
1085	39.6156
1098.4	41.7104
1111.76	29.8236
1125.07	29.9844
1138.34	28.6135
1151.55	44.91
1164.72	43.3171
1177.84	49.3322
1190.92	66.8788
1203.95	70.3325
1216.93	34.871
1229.87	35.7933
1242.76	31.5614
1255.6	36.6902
1268.4	43.599
1281.15	34.4442
1293.85	48.8338
1306.51	48.1852
1319.13	42.9586
1331.69	42.0704
1344.21	42.1488
1356.69	28.1454
1369.12	28.9261
1381.5	18.7186
1393.84	21.5516
1406.13	25.6866
1418.38	22.0769
1430.58	27.5986
1442.74	37.1723
1454.85	34.4986
1466.92	17.9526
1478.94	20.9862
1490.32	23.9974
1502.72	31.2978
1515.08	28.1811
1527.41	35.7071
1539.69	27.7681
1551.94	23.5845
1564.14	27.3711
1576.31	28.487
1588.44	28.5503
1600.53	61.5765
1612.58	28.3084
1624.59	19.7841
1636.57	22.948
1648.5	19.205
1660.4	20.1592
1672.26	12.5235
1684.08	5.00148
1695.86	8.82482
1707.6	2.41005
1719.31	4.80585
1730.97	-1.3171
1742.6	0.220211
1754.19	-3.21802
1765.74	-1.14172
1777.25	-3.66743
1788.73	-0.910779
1800.17	-5.72334
1811.57	-6.20755
1822.93	-4.86726
1834.25	-4.64713
1845.54	-3.10267
1856.78	-5.86841
1867.99	-3.35635
1879.17	-10.9568
1890.3	-8.90756
1901.4	-5.65829
1912.46	-7.67537
1923.48	-10.1124
1934.46	-4.32776
1945.41	-8.2381
1956.32	-7.75481
1967.19	-8.6348
1978.02	-11.6937
1988.82	-10.3797
1999.58	-15.0058
2010.3	-15.6422
2020.99	-12.1148
2031.64	-12.4477
2042.25	-17.9936
2052.82	-11.7118
2063.36	-8.83026
2073.86	-10.7012
2084.32	-15.1891
2094.75	-17.5204
2105.14	-14.9877
2115.49	-15.7628
2125.81	-10.3943
2136.09	-17.1644
2146.33	-11.418
2156.54	-18.3204
2166.71	-12.4578
2176.84	-12.5845
2186.94	-12.4829
2197	-15.0142
2207.02	-12.8524
2217.01	-9.45409
2226.97	-3.54005
2236.88	12.8536
2246.76	-0.700876
2256.61	-6.85564
2266.41	2.08637
2276.33	6.59066
2286.54	8.14824
2296.71	4.5747
2306.85	11.0496
2316.96	8.85252
2327.04	-1.3234
2337.09	-0.163683
2347.1	2.58435
2357.09	-1.26839
2367.04	0.0349412
2376.97	0.647986
2386.86	1.20718
2396.72	0.0502087
2406.55	-2.32916
2416.35	-4.49331
2426.12	-6.72819
2435.86	-6.11916
2445.56	-0.682451
2455.24	-8.33211
2464.88	-10.1953
2474.5	-4.99008
2484.08	-16.6694
2493.63	-5.44969
2503.15	-7.98877
2512.64	-7.62348
2522.1	-12.8233
2531.53	-10.8946
2540.93	-13.6597
2550.29	-16.3216
2559.63	-18.0187
2568.94	-10.2285
2578.21	-11.4529
2587.45	-14.4616
2596.67	-14.8102
2605.85	-16.1073
2615	-10.6319
2624.13	-13.1594
2633.22	-14.0293
2642.28	-17.3246
2651.31	-19.2886
2660.31	-18.3095
2669.28	-15.4545
2678.22	-12.5962
2687.12	-15.8998
2696	-15.8441
2704.85	-16.0999
2713.67	-16.0186
2722.45	-18.1219
2731.21	-14.803
2739.94	-16.158
2748.63	-18.0942
2757.3	-17.0287
2765.93	-19.6116
2774.54	-18.1595
2783.12	-17.2832
2791.66	-22.5869
2800.18	-16.5847
2808.66	-14.5638
2817.12	-19.1809
2825.54	-12.4796
2833.94	-18.6683
2842.3	-9.99441
2850.64	-14.2186
2858.94	-11.2689
2867.22	-12.3044
2875.47	-8.63862
2883.68	-5.02485
2891.87	-4.72593
2900.02	-3.34189
2908.15	-4.83549
2916.25	3.60038
2924.32	3.03837
2932.83	1.88254
2941.31	4.08261
2949.76	2.11588
2958.19	2.16016
2966.59	-0.977718
2974.97	-2.40155
2983.32	0.343293
2991.64	0.890095
2999.94	-6.10222
3008.22	2.05898
3016.46	1.08448
3024.69	-1.66771
3032.88	-5.50967
3041.05	-9.53494
3049.2	-9.98162
3057.32	-6.91633
3065.41	-6.85445
3073.48	-11.9178
3081.52	-11.4718
3089.54	-11.0954
3097.53	-15.8604
3105.5	-16.4047
3113.44	-12.9442
3121.35	-16.6768
3129.24	-16.3421
3137.11	-15.1991
3144.95	-15.1038
3152.76	-14.7822
3160.54	-10.6657
3168.31	-14.004
3176.04	-14.5293
3183.75	-17.3998
3191.44	-17.6059
3199.09	-15.6258
3206.73	-14.2259
3214.34	-18.8304
3221.92	-14.8253
3229.48	-17.9554
3237.01	-12.1906
3244.51	-18.2146
3251.99	-17.8006
3259.45	-13.3195
3266.88	-21.4076
3274.28	-19.1097
3281.66	-20.6573
3289.01	-21.9442
3296.34	-17.3848
3303.64	-18.9676
3310.92	-20.9488
3318.17	-16.4042
3325.4	-17.1821
3332.6	-20.6539
3339.77	-20.7908
3346.92	-20.8547
3354.05	-22.8488
3361.15	-19.8418
3368.22	-19.2387
3375.27	-17.3954
3382.29	-16.224
3389.29	-18.044
3396.27	-16.1002
3399.48	-20.5266