Folder: Mitacs/raman_enhancement_factor/Renata_Raman_12_12_2025 (part 2)

File: Oil_BHT_0_08Au_sub.txt
100.582	411
115.981	345.5
131.333	265
146.637	238
161.896	190
177.107	158
192.272	138
207.39	133
222.462	106.5
237.486	128
252.465	155
267.398	103
282.283	64
297.123	71
311.917	57
326.665	51
341.367	55
356.023	39
370.633	56
385.198	37
399.717	31
414.191	29
428.619	25
443.001	-3
457.339	24
471.631	31
485.877	10.5
500.079	8
514.236	18
528.348	11.5
542.414	4.5
556.436	13.5
570.414	5.5
584.347	0.5
598.234	17
612.078	2.5
625.877	5
639.632	-4
653.342	11
667.009	10
680.631	-11.5
694.21	22.5
707.744	9.5
721.234	-8
734.681	9
748.083	-3.5
761.443	-2
774.758	-2
788.03	7
801.259	13.5
814.444	3
827.586	29.5
840.685	46
853.74	26.5
866.753	31
879.722	36
892.649	17.5
905.533	12
918.374	-2
931.173	19.5
943.928	19
956.641	7
969.312	23
981.94	7
994.527	-7
1007.07	17.5
1019.57	20.5
1032.03	1
1044.45	-1
1056.83	18.5
1069.16	24
1081.45	9
1093.7	7
1105.91	14
1118.08	-3
1130.2	-5.5
1142.29	10.5
1154.33	-14.2804
1166.33	-9.91237
1178.3	-3.71469
1190.22	-0.794979
1202.09	-15.4793
1213.93	-8.87175
1225.73	2.47619
1237.49	13.8391
1249.2	26.2702
1260.79	44
1272.85	41.5
1284.88	17
1296.88	39
1308.84	27
1320.77	18
1332.66	16.5
1344.51	-3
1356.33	-3.5
1368.12	-6
1379.86	-11
1391.58	-13
1403.26	-14
1414.9	-13.5
1426.51	4.5
1438.09	63
1449.63	26
1461.13	15
1472.6	-5
1484.03	-20
1495.43	-28
1506.8	-43
1518.13	-34.5
1529.43	-23
1540.69	-39
1551.91	-29.5
1563.11	-22
1574.26	-24
1585.39	-35
1596.48	-20
1607.53	-35
1618.55	-35
1629.54	-24.5
1640.49	-10
1651.41	23.5
1662.29	7
1673.14	-26.5
1683.95	-37
1694.74	-25
1705.48	-16
1716.2	-25
1726.88	-53
1737.52	-25.5
1748.13	-21
1758.71	-32
1769.25	-17.5
1779.76	-34.5
1790.24	-19
1800.68	-28
1811.09	-27
1821.47	-29
1831.81	-30
1842.12	-29
1852.4	-39
1862.64	-14
1872.85	-35
1883.02	-29
1893.17	-39
1903.28	-33
1913.35	-30
1923.4	-35
1933.41	-37.5
1943.38	-46
1953.33	-25
1963.24	-35.5
1973.12	-36
1982.96	-29
1992.78	-32
2002.56	-31.5594
2012.3	-26.8605
2022.02	-18.0594
2031.7	-22.4589
2041.35	-32.1515
2050.97	-25.7157
2060.55	-20.5392
2070.1	-17.0615
2079.62	-24.0498
2088.81	-8.5
2098.7	-7
2108.56	-26
2118.4	-9
2128.2	-27
2137.98	-24
2147.73	-15
2157.45	-9
2167.15	-54
2176.81	-23
2186.45	-22.5
2196.06	-16
2205.64	-25.5
2215.2	-28.5
2224.72	-23.5
2234.22	-41
2243.69	-48
2253.13	-25.5
2262.55	-39
2271.93	-36
2281.29	-32.5
2290.62	-43
2299.93	-27.5
2309.2	-33.5
2318.45	-21
2327.67	-29
2336.86	-48
2346.03	-34
2355.17	-33.5
2364.28	-53
2373.36	-36
2382.41	-36
2391.44	-35
2400.44	-38.5
2409.41	-36
2418.35	-31.5
2427.27	-40
2436.16	-33
2445.02	-48
2453.86	-39
2462.66	-47
2471.44	-24.5
2480.19	-38.5
2488.92	-47
2497.62	-34
2506.29	-41
2514.93	-35
2523.55	-25
2532.14	-37.5
2540.7	-30
2549.23	-29.5
2557.74	-24
2566.22	-40
2574.67	-26
2583.1	-42
2591.5	-27
2599.87	-36.5
2608.21	-32.5
2616.53	-36
2624.82	-37
2633.08	-44
2641.32	-33.5
2649.53	-37
2657.71	-40
2665.87	-34
2674	-21
2682.1	-19.5
2690.18	-20.5
2698.23	-24.8255
2706.25	-33.5126
2714.25	-37.2877
2722.22	-29.8967
2730.16	-28.936
2738.07	-22.1974
2745.96	-19.4551
2753.83	-22.8784
2761.66	-14.2134
2769.81	-18
2778.03	-16.5
2786.22	-26
2794.39	-31
2802.54	-34.5
2810.66	-18.5
2818.76	-24.5
2826.84	-25
2834.9	-17
2842.93	-26
2850.94	-9.5
2858.92	0
2866.89	-20
2874.83	-26
2882.75	-27
2890.64	-16.5
2898.51	-22
2906.36	-20
2914.19	-19.5
2921.99	-16.5
2929.77	-21
2937.53	-20
2945.26	-22.5
2952.98	-28
2960.66	-27.5
2968.33	-44
2975.97	-25
2983.59	-41.5
2991.19	-29
2998.77	-31.5
3006.32	-43
3013.85	-47
3021.35	-26.5
3028.84	-18.5
3036.3	-32.5
3043.73	-24.5
3051.15	-30
3058.54	-30.5
3065.91	-37.5
3073.26	-25
3080.58	-51
3087.88	-41
3095.16	-45
3102.42	-32
3109.65	-38.5
3116.86	-30
3124.05	-43
3131.22	-42
3138.36	-32
3145.48	-26.5
3152.58	-37.5
3159.65	-40.5
3166.7	-22.5
3173.73	-38
3180.74	-35
3187.72	-40
3194.69	-31
3199.89	-38.5

File: Oil_BHT_0_008Au_sub_Aged_50Xlens_785_1200grating_25%_acc3_acq3s_AE50000.txt
100.582	327
115.981	276
131.333	253
146.637	196
161.896	165.5
177.107	114
192.272	94
207.39	114.5
222.462	98
237.486	92
252.465	182
267.398	105
282.283	68.5
297.123	70.5
311.917	64
326.665	54
341.367	37
356.023	44
370.633	41
385.198	25
399.717	39
414.191	32
428.619	27
443.001	23
457.339	14.5
471.631	22
485.877	5
500.079	7
514.236	8
528.348	12.5
542.414	6.5
556.436	6
570.414	4.5
584.347	-12
598.234	-2.5
612.078	-5
625.877	9
639.632	2.5
653.342	0
667.009	-16
680.631	-11.5
694.21	-5.5
707.744	-6
721.234	-1.5
734.681	2.5
748.083	1
761.443	-7
774.758	5
788.03	5.5
801.259	-1
814.444	-9
827.586	18.5
840.685	29
853.74	15.5
866.753	24
879.722	16.5
892.649	7
905.533	-7.5
918.374	10
931.173	12
943.928	5
956.641	3
969.312	13.5
981.94	-9
994.527	0
1007.07	9.5
1019.57	-2
1032.03	-4
1044.45	5
1056.83	6.5
1069.16	-6.5
1081.45	13
1093.7	-6
1105.91	-7
1118.08	-5
1130.2	-10
1142.29	-11.5
1154.33	-23.6853
1166.33	-16.6509
1178.3	-4.85066
1190.22	-7.18536
1202.09	0.71332
1213.93	-3.37619
1225.73	-4.52044
1237.49	1.40675
1249.2	10.6332
1260.79	33.5
1272.85	34
1284.88	22
1296.88	39
1308.84	20.5
1320.77	11
1332.66	-2
1344.51	6.5
1356.33	-14
1368.12	-20
1379.86	-1.5
1391.58	-24
1403.26	-13.5
1414.9	-16.5
1426.51	-3
1438.09	49.5
1449.63	19
1461.13	6
1472.6	-13
1484.03	-25
1495.43	-17.5
1506.8	-26
1518.13	-31
1529.43	-31.5
1540.69	-41
1551.91	-31
1563.11	-29
1574.26	-21
1585.39	-26
1596.48	-20.5
1607.53	-35.5
1618.55	-13
1629.54	-32.5
1640.49	-36
1651.41	11
1662.29	15
1673.14	-17.5
1683.95	-23
1694.74	-35
1705.48	-31
1716.2	-37
1726.88	-23
1737.52	-24
1748.13	-22.5
1758.71	-20
1769.25	-23.5
1779.76	-34
1790.24	-36
1800.68	-26
1811.09	-35
1821.47	-40.5
1831.81	-23
1842.12	-37
1852.4	-31
1862.64	-42
1872.85	-47
1883.02	-16
1893.17	-28
1903.28	-32.5
1913.35	-24.5
1923.4	-31.5
1933.41	-31
1943.38	-29
1953.33	-40
1963.24	-30.5
1973.12	-27
1982.96	-44
1992.78	-31
2002.56	-33.0055
2012.3	-27.3553
2022.02	-31.0182
2031.7	-23.8241
2041.35	-25.0517
2050.97	-33.0266
2060.55	-17.4266
2070.1	-17.7871
2079.62	-2.92964
2088.81	-13
2098.7	-19
2108.56	-25
2118.4	-22.5
2128.2	-21
2137.98	-20
2147.73	-14.5
2157.45	-20.5
2167.15	-20
2176.81	-9
2186.45	-16.5
2196.06	-37.5
2205.64	-22.5
2215.2	-25
2224.72	-35.5
2234.22	-44
2243.69	-24
2253.13	-44
2262.55	-43
2271.93	-21
2281.29	-27
2290.62	-33
2299.93	-38.5
2309.2	-25
2318.45	-37.5
2327.67	-30.5
2336.86	-20.5
2346.03	-31
2355.17	-40
2364.28	-33
2373.36	-47.5
2382.41	-26
2391.44	-37.5
2400.44	-29.5
2409.41	-21
2418.35	-29
2427.27	-38.5
2436.16	-34.5
2445.02	-31
2453.86	-35
2462.66	-31.5
2471.44	-39
2480.19	-44
2488.92	-37
2497.62	-32.5
2506.29	-48
2514.93	-36
2523.55	-41
2532.14	-28
2540.7	-23.5
2549.23	-26
2557.74	-33.5
2566.22	-46
2574.67	-25.5
2583.1	-29.5
2591.5	-29.5
2599.87	-45
2608.21	-21
2616.53	-43
2624.82	-36.5
2633.08	-19
2641.32	-30.5
2649.53	-39
2657.71	-33.5
2665.87	-44
2674	-33
2682.1	-43
2690.18	-20
2698.23	-25.1335
2706.25	-28.693
2714.25	-18.3329
2722.22	-27.7497
2730.16	-30.9718
2738.07	-35.791
2745.96	-30.2626
2753.83	-15.9142
2761.66	-15.2358
2769.81	-10
2778.03	-20.5
2786.22	-19.5
2794.39	-5.5
2802.54	-28
2810.66	-32
2818.76	-12.5
2826.84	-26
2834.9	-30
2842.93	-16.5
2850.94	-9
2858.92	-23.5
2866.89	-23.5
2874.83	1.5
2882.75	-29.5
2890.64	-24.5
2898.51	-17
2906.36	-20
2914.19	-28.5
2921.99	-30
2929.77	-13
2937.53	-23.5
2945.26	-28
2952.98	-20
2960.66	-40
2968.33	-38
2975.97	-26.5
2983.59	-40
2991.19	-48
2998.77	-38
3006.32	-32
3013.85	-35
3021.35	-43
3028.84	-25
3036.3	-16
3043.73	-44
3051.15	-42.5
3058.54	-30
3065.91	-43
3073.26	-40
3080.58	-19
3087.88	-44.5
3095.16	-47
3102.42	-31.5
3109.65	-24
3116.86	-46
3124.05	-54
3131.22	-29.5
3138.36	-39.5
3145.48	-49.5
3152.58	-25.5
3159.65	-28
3166.7	-33.5
3173.73	-30
3180.74	-14
3187.72	-32
3194.69	-35.5
3199.89	-43

File: Oil_BHT_0_08Au_sub_Aged_50Xlens_785_1200grating_25%_acc3_acq3s_AE50000.txt
100.582	568
115.981	468.5
131.333	398.5
146.637	307
161.896	247
177.107	232.5
192.272	182
207.39	176.5
222.462	167
237.486	162
252.465	278
267.398	143
282.283	139
297.123	124.5
311.917	93
326.665	102
341.367	91.5
356.023	68.5
370.633	72
385.198	72.5
399.717	51.5
414.191	48.5
428.619	53
443.001	54.5
457.339	32
471.631	41.5
485.877	50
500.079	17.5
514.236	36
528.348	27.5
542.414	-2
556.436	18
570.414	26
584.347	24
598.234	12.5
612.078	24.5
625.877	14
639.632	1
653.342	7
667.009	7
680.631	9
694.21	1.5
707.744	24
721.234	38
734.681	21.5
748.083	7.5
761.443	19
774.758	11
788.03	-18
801.259	11
814.444	28.5
827.586	31
840.685	58
853.74	53.5
866.753	69.5
879.722	45
892.649	40
905.533	48
918.374	36.5
931.173	30
943.928	47
956.641	31
969.312	28
981.94	26.5
994.527	19
1007.07	11
1019.57	19.5
1032.03	21.5
1044.45	19
1056.83	22
1069.16	52
1081.45	37
1093.7	23
1105.91	30
1118.08	19
1130.2	-4
1142.29	5.5
1154.33	2.29094
1166.33	-6.34985
1178.3	-0.846757
1190.22	-4.85257
1202.09	11.1713
1213.93	3.16635
1225.73	7.52843
1237.49	24.3216
1249.2	42.7179
1260.79	65
1272.85	65.5
1284.88	34.5
1296.88	80
1308.84	51.5
1320.77	13
1332.66	18.5
1344.51	17
1356.33	-10
1368.12	7
1379.86	-4
1391.58	5.5
1403.26	-16.5
1414.9	14.5
1426.51	27.5
1438.09	92
1449.63	38
1461.13	30
1472.6	9
1484.03	-14.5
1495.43	-20
1506.8	-22
1518.13	-16.5
1529.43	-19
1540.69	-19.5
1551.91	-25
1563.11	-35.5
1574.26	-16.5
1585.39	-18
1596.48	-28.5
1607.53	-20
1618.55	-16
1629.54	-24.5
1640.49	-9.5
1651.41	38
1662.29	31.5
1673.14	-19
1683.95	-44
1694.74	-18
1705.48	-37
1716.2	-38.5
1726.88	-17.5
1737.52	-19
1748.13	-8.5
1758.71	-20
1769.25	-16.5
1779.76	-47
1790.24	-28
1800.68	-19
1811.09	-30
1821.47	-29
1831.81	-22
1842.12	-37
1852.4	-24.5
1862.64	-35
1872.85	-27
1883.02	-35.5
1893.17	-43
1903.28	-30
1913.35	-16.5
1923.4	-27
1933.41	-30
1943.38	-31
1953.33	-37.5
1963.24	-19
1973.12	-16.5
1982.96	-30
1992.78	-34
2002.56	-35.5051
2012.3	-23.8566
2022.02	-33.6906
2031.7	-39.1852
2041.35	-17.4703
2050.97	-37.2365
2060.55	-28.6569
2070.1	-29.8611
2079.62	-7.10018
2088.81	-3
2098.7	-19
2108.56	-19
2118.4	-27
2128.2	-15
2137.98	-37
2147.73	-29
2157.45	-14
2167.15	-21
2176.81	-44
2186.45	-23
2196.06	-20
2205.64	-24.5
2215.2	-45.5
2224.72	-22.5
2234.22	-43
2243.69	-38
2253.13	-21
2262.55	-31.5
2271.93	-29.5
2281.29	-36.5
2290.62	-28
2299.93	-35
2309.2	-31
2318.45	-22.5
2327.67	-30.5
2336.86	-38.5
2346.03	-32
2355.17	-50
2364.28	-37
2373.36	-37
2382.41	-30
2391.44	-41.5
2400.44	-29.5
2409.41	-14.5
2418.35	-26
2427.27	-42.5
2436.16	-38
2445.02	-45
2453.86	-47
2462.66	-32
2471.44	-33.5
2480.19	-37
2488.92	-49
2497.62	-30
2506.29	-28
2514.93	-39
2523.55	-44
2532.14	-17
2540.7	-41
2549.23	-42
2557.74	-32.5
2566.22	-29
2574.67	-46.5
2583.1	-33
2591.5	-27
2599.87	-37.5
2608.21	-48
2616.53	-38.5
2624.82	-44
2633.08	-38
2641.32	-27.5
2649.53	-38
2657.71	-32
2665.87	-35.5
2674	-19
2682.1	-43
2690.18	-36
2698.23	-25.706
2706.25	-30.256
2714.25	-33.7517
2722.22	-20.819
2730.16	-26.1307
2738.07	-22.3453
2745.96	-31.7176
2753.83	-19.6909
2761.66	-25.869
2769.81	-11
2778.03	-24
2786.22	-23
2794.39	-17.5
2802.54	-15
2810.66	-25.5
2818.76	-21
2826.84	-25
2834.9	-17
2842.93	-24.5
2850.94	-7.5
2858.92	-19
2866.89	6.5
2874.83	-15
2882.75	-11
2890.64	-21.5
2898.51	-28
2906.36	-7
2914.19	-5
2921.99	-24.5
2929.77	-11
2937.53	-20
2945.26	-33
2952.98	-28
2960.66	-30
2968.33	-30.5
2975.97	-43.5
2983.59	-36
2991.19	-53
2998.77	-31.5
3006.32	-28
3013.85	-47
3021.35	-24.5
3028.84	-38.5
3036.3	-30.5
3043.73	-21.5
3051.15	-33
3058.54	-32
3065.91	-22
3073.26	-26.5
3080.58	-34
3087.88	-34
3095.16	-37
3102.42	-38
3109.65	-36
3116.86	-37.5
3124.05	-45.5
3131.22	-35.5
3138.36	-39
3145.48	-27
3152.58	-38
3159.65	-33
3166.7	-21
3173.73	-38.5
3180.74	-23
3187.72	-35
3194.69	-33
3199.89	-42

File: Oil_BHT_0_008Au_sub_Aged_50Xlens_785_1200grating_25%_acc3_acq3s_AE50000_1.txt
100.582	451
115.981	375
131.333	322
146.637	283.5
161.896	214
177.107	164
192.272	151
207.39	137
222.462	136
237.486	125
252.465	212
267.398	126
282.283	119.5
297.123	106
311.917	87
326.665	64
341.367	76.5
356.023	67.5
370.633	62.5
385.198	63
399.717	57.5
414.191	39
428.619	33
443.001	45.5
457.339	20
471.631	18
485.877	31
500.079	23
514.236	8
528.348	16.5
542.414	18.5
556.436	0
570.414	3.5
584.347	13
598.234	8
612.078	2
625.877	12.5
639.632	17
653.342	-14
667.009	-6
680.631	11
694.21	5.5
707.744	-20
721.234	18
734.681	14.5
748.083	-5
761.443	-7
774.758	8.5
788.03	-4.5
801.259	-15
814.444	26
827.586	31
840.685	37
853.74	11
866.753	38
879.722	20
892.649	1
905.533	39.5
918.374	18
931.173	17
943.928	22
956.641	25
969.312	25
981.94	12
994.527	10
1007.07	-4
1019.57	-10.5
1032.03	4
1044.45	8.5
1056.83	17.5
1069.16	29.5
1081.45	32
1093.7	11
1105.91	-5
1118.08	10
1130.2	1
1142.29	-7
1154.33	1.19187
1166.33	-8.94396
1178.3	4.11395
1190.22	-6.67072
1202.09	6.30279
1213.93	-1.80755
1225.73	8.10625
1237.49	9.45375
1249.2	21.0457
1260.79	44
1272.85	37.5
1284.88	25
1296.88	49
1308.84	38.5
1320.77	21.5
1332.66	0
1344.51	-7
1356.33	-7
1368.12	-4.5
1379.86	-2
1391.58	-13
1403.26	-0.5
1414.9	10
1426.51	5.5
1438.09	71
1449.63	34.5
1461.13	16
1472.6	1
1484.03	-13
1495.43	-12.5
1506.8	-33
1518.13	-27.5
1529.43	-10
1540.69	-31
1551.91	-22
1563.11	-19
1574.26	-20
1585.39	-27
1596.48	-27.5
1607.53	-19.5
1618.55	-30
1629.54	-25
1640.49	-18.5
1651.41	23
1662.29	15
1673.14	-18
1683.95	-21
1694.74	-33
1705.48	-25
1716.2	-31
1726.88	-33
1737.52	-23.5
1748.13	-13
1758.71	-26
1769.25	-40
1779.76	-31.5
1790.24	-28.5
1800.68	-30.5
1811.09	-25
1821.47	-26
1831.81	-17
1842.12	-37
1852.4	-30.5
1862.64	-20
1872.85	-30.5
1883.02	-22
1893.17	-25
1903.28	-28
1913.35	-33
1923.4	-25.5
1933.41	-27
1943.38	-34.5
1953.33	-39
1963.24	-25.5
1973.12	-34.5
1982.96	-43
1992.78	-24
2002.56	-31.2928
2012.3	-32.6929
2022.02	-22.7627
2031.7	-31.0053
2041.35	-21.9165
2050.97	-24.1644
2060.55	-20.7122
2070.1	-18.1923
2079.62	-26.1773
2088.81	-24.5
2098.7	-17
2108.56	-40
2118.4	-18.5
2128.2	-20
2137.98	-17.5
2147.73	-16
2157.45	-5
2167.15	-26
2176.81	-25
2186.45	-30
2196.06	-45
2205.64	-29
2215.2	-24.5
2224.72	-29.5
2234.22	-37
2243.69	-39
2253.13	-25.5
2262.55	-29.5
2271.93	-30
2281.29	-18.5
2290.62	-35.5
2299.93	-39
2309.2	-30.5
2318.45	-38
2327.67	-28
2336.86	-38
2346.03	-39
2355.17	-40
2364.28	-38
2373.36	-44
2382.41	-35
2391.44	-36.5
2400.44	-30.5
2409.41	-25.5
2418.35	-27
2427.27	-59
2436.16	-45.5
2445.02	-28
2453.86	-39.5
2462.66	-36
2471.44	-22.5
2480.19	-45
2488.92	-42
2497.62	-36
2506.29	-33.5
2514.93	-53
2523.55	-24.5
2532.14	-39
2540.7	-39.5
2549.23	-54
2557.74	-29.5
2566.22	-32
2574.67	-32
2583.1	-33
2591.5	-15
2599.87	-44
2608.21	-32.5
2616.53	-31
2624.82	-48
2633.08	-32
2641.32	-38
2649.53	-30
2657.71	-60
2665.87	-26.5
2674	-33
2682.1	-32
2690.18	-44.5
2698.23	-26.7729
2706.25	-21.4415
2714.25	-22.7331
2722.22	-23.3584
2730.16	-18.7954
2738.07	-37.9008
2745.96	-32.7688
2753.83	-23.8941
2761.66	-23.3479
2769.81	-19
2778.03	-18
2786.22	-29.5
2794.39	-24
2802.54	-20
2810.66	-17
2818.76	-20.5
2826.84	-4
2834.9	-28
2842.93	-19.5
2850.94	-2
2858.92	-2.5
2866.89	-22.5
2874.83	-26
2882.75	-26
2890.64	-33
2898.51	-27
2906.36	-8
2914.19	-39
2921.99	-26.5
2929.77	-22
2937.53	-21
2945.26	-27.5
2952.98	-28.5
2960.66	-25
2968.33	-47.5
2975.97	-49
2983.59	-32.5
2991.19	-38
2998.77	-41
3006.32	-26.5
3013.85	-20
3021.35	-33
3028.84	-34
3036.3	-30
3043.73	-48
3051.15	-37
3058.54	-31
3065.91	-24.5
3073.26	-38
3080.58	-30.5
3087.88	-20
3095.16	-42
3102.42	-45
3109.65	-28
3116.86	-48
3124.05	-49.5
3131.22	-30
3138.36	-40
3145.48	-36
3152.58	-37.5
3159.65	-29
3166.7	-41
3173.73	-46
3180.74	-27.5
3187.72	-28.5
3194.69	-47
3199.89	-31

File: Oil_BHT_1%_50Xlens_785_1200grating_25%_acc3_acq3s_AE50000_1.txt
100.582	490
115.981	402.5
131.333	351
146.637	293
161.896	246
177.107	190
192.272	174
207.39	178
222.462	158.5
237.486	151
252.465	199
267.398	131
282.283	127
297.123	102
311.917	98.5
326.665	81
341.367	79.5
356.023	75
370.633	75
385.198	44
399.717	58.5
414.191	66
428.619	54.5
443.001	53
457.339	51
471.631	42
485.877	33.5
500.079	38
514.236	45.5
528.348	36.5
542.414	27
556.436	22
570.414	26.5
584.347	7
598.234	15.5
612.078	30
625.877	14
639.632	2.5
653.342	0.5
667.009	25
680.631	21
694.21	21
707.744	33.5
721.234	13
734.681	18.5
748.083	21
761.443	17
774.758	10
788.03	18
801.259	22.5
814.444	15
827.586	27
840.685	57
853.74	45
866.753	46
879.722	40.5
892.649	38.5
905.533	39
918.374	33.5
931.173	27.5
943.928	39.5
956.641	32
969.312	36.5
981.94	37.5
994.527	12
1007.07	12
1019.57	13.5
1032.03	15
1044.45	-11
1056.83	26
1069.16	50
1081.45	29
1093.7	20
1105.91	41
1118.08	24.5
1130.2	-4.5
1142.29	10.5
1154.33	-21.8962
1166.33	-8.9928
1178.3	11.958
1190.22	13.697
1202.09	1.2481
1213.93	17.2517
1225.73	15.4844
1237.49	24.4273
1249.2	50.8901
1260.79	82.5
1272.85	63.5
1284.88	43.5
1296.88	97.5
1308.84	55
1320.77	23
1332.66	36
1344.51	51
1356.33	27.5
1368.12	27.5
1379.86	38
1391.58	10.5
1403.26	11.5
1414.9	28
1426.51	45
1438.09	69
1449.63	62
1461.13	52
1472.6	17
1484.03	-3
1495.43	15
1506.8	3
1518.13	-16
1529.43	-3
1540.69	3
1551.91	-15
1563.11	-21
1574.26	-1
1585.39	-5
1596.48	-18
1607.53	-15.5
1618.55	4
1629.54	-21
1640.49	-7.5
1651.41	67.5
1662.29	23.5
1673.14	-6
1683.95	2.5
1694.74	-14
1705.48	-23
1716.2	-23.5
1726.88	-5
1737.52	-10.5
1748.13	-15
1758.71	-18.5
1769.25	-18.5
1779.76	-29
1790.24	-10.5
1800.68	-30
1811.09	-27
1821.47	-21
1831.81	-22.5
1842.12	-25
1852.4	-23
1862.64	-11
1872.85	-17
1883.02	-33.5
1893.17	-23
1903.28	-5.5
1913.35	-29
1923.4	-33
1933.41	-11.5
1943.38	-14
1953.33	-35
1963.24	-13.5
1973.12	-6.5
1982.96	-23.5
1992.78	-29.5
2002.56	-14.1467
2012.3	-22.4756
2022.02	-36.9551
2031.7	-34.1123
2041.35	-27.7097
2050.97	-26.2547
2060.55	-14.6326
2070.1	-13.2098
2079.62	-9.80615
2088.81	-6.5
2098.7	-23.5
2108.56	-7.5
2118.4	-10
2128.2	-46
2137.98	-30
2147.73	-4
2157.45	-23
2167.15	-42
2176.81	-12
2186.45	-28
2196.06	-37
2205.64	-17.5
2215.2	-19.5
2224.72	-25
2234.22	-38.5
2243.69	-19
2253.13	-43
2262.55	-46
2271.93	-26
2281.29	-17.5
2290.62	-45
2299.93	-36.5
2309.2	-14.5
2318.45	-50
2327.67	-40
2336.86	-30
2346.03	-23.5
2355.17	-37.5
2364.28	-32.5
2373.36	-22.5
2382.41	-30.5
2391.44	-38.5
2400.44	-12
2409.41	-32
2418.35	-30
2427.27	-22
2436.16	-22
2445.02	-50
2453.86	-30.5
2462.66	-23.5
2471.44	-38
2480.19	-36.5
2488.92	-25
2497.62	-28
2506.29	-27
2514.93	-36.5
2523.55	-20.5
2532.14	-35.5
2540.7	-37
2549.23	-21.5
2557.74	-24
2566.22	-37
2574.67	-28.5
2583.1	-21.5
2591.5	-36.5
2599.87	-33.5
2608.21	-20
2616.53	-32
2624.82	-44.5
2633.08	-25
2641.32	-45
2649.53	-48
2657.71	-32
2665.87	-7
2674	-34.5
2682.1	-36.5
2690.18	-6
2698.23	-31.3336
2706.25	-30.2195
2714.25	-32.1516
2722.22	-14.6282
2730.16	-25.3889
2738.07	-25.3676
2745.96	-17.7977
2753.83	-20.8612
2761.66	-20.239
2769.81	-16
2778.03	-16
2786.22	-7
2794.39	-11.5
2802.54	-5.5
2810.66	3
2818.76	-33
2826.84	-18.5
2834.9	-13.5
2842.93	-25
2850.94	-8.5
2858.92	0.5
2866.89	-14.5
2874.83	-22
2882.75	-10
2890.64	-11
2898.51	-23
2906.36	-33
2914.19	-11
2921.99	-29
2929.77	-31.5
2937.53	-23.5
2945.26	-37
2952.98	-31
2960.66	-25.5
2968.33	-36
2975.97	-54
2983.59	-31
2991.19	-21
2998.77	-33
3006.32	-33.5
3013.85	-22.5
3021.35	-47
3028.84	-50
3036.3	-32
3043.73	-26
3051.15	-34.5
3058.54	-41.5
3065.91	-25
3073.26	-33.5
3080.58	-55
3087.88	-29
3095.16	-27
3102.42	-33
3109.65	-36.5
3116.86	-20
3124.05	-33
3131.22	-42
3138.36	-32
3145.48	-32
3152.58	-33.5
3159.65	-38.5
3166.7	-30
3173.73	-44
3180.74	-40.5
3187.72	-28
3194.69	-26
3199.89	-33.5