Folder: Mitacs/raman_enhancement_factor/Renata_Raman_12_12_2025

File: Oil_50Xlens_785_1200grating_25%_acc3_acq3s_AE50000_1.txt
100.582	425.5
115.981	347
131.333	324.5
146.637	261
161.896	203.5
177.107	182
192.272	153
207.39	139
222.462	131
237.486	141
252.465	168
267.398	107
282.283	97.5
297.123	84.5
311.917	79
326.665	76
341.367	67.5
356.023	55
370.633	54
385.198	70
399.717	57.5
414.191	42.5
428.619	47
443.001	51.5
457.339	24
471.631	36.5
485.877	19.5
500.079	16
514.236	31
528.348	34.5
542.414	19.5
556.436	2
570.414	13.5
584.347	12
598.234	11
612.078	13
625.877	20
639.632	10
653.342	-2
667.009	16
680.631	6
694.21	20
707.744	9.5
721.234	1
734.681	6.5
748.083	7.5
761.443	13
774.758	7.5
788.03	4
801.259	17
814.444	25
827.586	23
840.685	29.5
853.74	35.5
866.753	28
879.722	25
892.649	20
905.533	31
918.374	12
931.173	24
943.928	17
956.641	20
969.312	20.5
981.94	12
994.527	12.5
1007.07	9.5
1019.57	13.5
1032.03	4
1044.45	15
1056.83	7
1069.16	29
1081.45	23.5
1093.7	17
1105.91	22.5
1118.08	7.5
1130.2	-7
1142.29	1
1154.33	-3.39088
1166.33	5.69323
1178.3	1.40329
1190.22	1.51386
1202.09	-1.02551
1213.93	-6.16573
1225.73	12.6958
1237.49	24.4231
1249.2	32.6608
1260.79	41
1272.85	39
1284.88	32
1296.88	41
1308.84	41.5
1320.77	32
1332.66	1
1344.51	8
1356.33	0
1368.12	0
1379.86	4.5
1391.58	13
1403.26	5
1414.9	14
1426.51	20.5
1438.09	51
1449.63	42.5
1461.13	29
1472.6	9
1484.03	-8
1495.43	-0.5
1506.8	-6
1518.13	-15
1529.43	-9.5
1540.69	-14
1551.91	-5
1563.11	-21
1574.26	-14.5
1585.39	-27
1596.48	-27
1607.53	-26
1618.55	-24
1629.54	-6
1640.49	-7
1651.41	12
1662.29	10
1673.14	-39
1683.95	-25
1694.74	-22
1705.48	-22
1716.2	-23
1726.88	-31.5
1737.52	-4
1748.13	-29
1758.71	-17.5
1769.25	-20.5
1779.76	-19
1790.24	-31
1800.68	-25
1811.09	-23
1821.47	-34
1831.81	-19.5
1842.12	-31.5
1852.4	-13
1862.64	-23
1872.85	-32
1883.02	-24
1893.17	-13
1903.28	-25
1913.35	-22
1923.4	-21
1933.41	-6
1943.38	-31
1953.33	-35
1963.24	-26
1973.12	-34.5
1982.96	-21
1992.78	-19
2002.56	-29.2092
2012.3	-27.5766
2022.02	-41.0903
2031.7	-30.6984
2041.35	-24.5701
2050.97	-25.9313
2060.55	-17.8971
2070.1	-13.8851
2079.62	-14.546
2088.81	-12.5
2098.7	-10
2108.56	-15
2118.4	-5
2128.2	-20.5
2137.98	-26
2147.73	-6
2157.45	-25
2167.15	-21
2176.81	-17
2186.45	-25
2196.06	-47
2205.64	-46
2215.2	-26
2224.72	-19
2234.22	-35
2243.69	-29
2253.13	-28.5
2262.55	-36
2271.93	-45.5
2281.29	-38.5
2290.62	-46
2299.93	-51
2309.2	-29
2318.45	-32
2327.67	-43
2336.86	-31.5
2346.03	-33
2355.17	-43
2364.28	-33
2373.36	-32
2382.41	-35.5
2391.44	-37
2400.44	-34.5
2409.41	-20
2418.35	-37
2427.27	-31
2436.16	-44
2445.02	-30.5
2453.86	-28
2462.66	-38
2471.44	-27.5
2480.19	-39
2488.92	-39.5
2497.62	-36.5
2506.29	-42
2514.93	-33
2523.55	-22.5
2532.14	-35
2540.7	-57
2549.23	-26.5
2557.74	-31.5
2566.22	-43
2574.67	-18.5
2583.1	-32.5
2591.5	-39
2599.87	-61
2608.21	-27.5
2616.53	-30
2624.82	-33.5
2633.08	-24
2641.32	-31
2649.53	-34
2657.71	-31
2665.87	-20.5
2674	-38
2682.1	-26
2690.18	-28
2698.23	-24.4545
2706.25	-37.9221
2714.25	-27.1977
2722.22	-29.3997
2730.16	-28.4401
2738.07	-28.0972
2745.96	-25.5369
2753.83	-21.8652
2761.66	-27.4239
2769.81	-21
2778.03	-19.5
2786.22	-2
2794.39	-25
2802.54	-25
2810.66	-31
2818.76	-19
2826.84	-15.5
2834.9	-16.5
2842.93	-21
2850.94	-24.5
2858.92	-17
2866.89	-15
2874.83	-31
2882.75	-22
2890.64	-21.5
2898.51	-40
2906.36	-28
2914.19	-24
2921.99	-17.5
2929.77	-13.5
2937.53	-32.5
2945.26	-30
2952.98	-49
2960.66	-38
2968.33	-33
2975.97	-29
2983.59	-35
2991.19	-37.5
2998.77	-22
3006.32	-27
3013.85	-38
3021.35	-38.5
3028.84	-45
3036.3	-30.5
3043.73	-36.5
3051.15	-26
3058.54	-44
3065.91	-27.5
3073.26	-42
3080.58	-30
3087.88	-38
3095.16	-45
3102.42	-35.5
3109.65	-46
3116.86	-36.5
3124.05	-26
3131.22	-39
3138.36	-42
3145.48	-38
3152.58	-34
3159.65	-35.5
3166.7	-26
3173.73	-30
3180.74	-38
3187.72	-37.5
3194.69	-41
3199.89	-40

File: Oil_BHT_0_5_50Xlens_785_1200grating_25%_acc3_acq3s_AE50000_1.txt
100.582	520
115.981	438
131.333	364.5
146.637	310
161.896	241
177.107	220
192.272	171
207.39	194
222.462	156
237.486	161
252.465	239
267.398	135
282.283	130.5
297.123	113
311.917	84
326.665	105.5
341.367	84.5
356.023	75
370.633	67
385.198	77
399.717	63
414.191	54.5
428.619	45.5
443.001	44
457.339	43.5
471.631	49
485.877	44.5
500.079	39
514.236	25
528.348	32
542.414	17.5
556.436	18
570.414	23.5
584.347	25
598.234	8.5
612.078	16
625.877	15
639.632	12.5
653.342	17.5
667.009	5
680.631	16
694.21	13
707.744	28
721.234	32.5
734.681	10
748.083	11
761.443	20.5
774.758	15
788.03	7.5
801.259	31
814.444	19
827.586	44
840.685	57
853.74	65
866.753	54
879.722	58
892.649	52.5
905.533	44
918.374	45.5
931.173	47
943.928	48
956.641	38.5
969.312	62.5
981.94	20.5
994.527	29.5
1007.07	23.5
1019.57	33
1032.03	13
1044.45	32.5
1056.83	36
1069.16	54
1081.45	50
1093.7	40.5
1105.91	26
1118.08	28.5
1130.2	9
1142.29	8
1154.33	-7.9706
1166.33	7.68107
1178.3	-1.16642
1190.22	8.08838
1202.09	8.83906
1213.93	4.28116
1225.73	18.4386
1237.49	28.839
1249.2	55.8791
1260.79	88
1272.85	59
1284.88	73
1296.88	98
1308.84	56
1320.77	38.5
1332.66	32
1344.51	19.5
1356.33	30.5
1368.12	27
1379.86	5
1391.58	11
1403.26	4
1414.9	30
1426.51	35.5
1438.09	108
1449.63	73
1461.13	38
1472.6	15
1484.03	15
1495.43	4
1506.8	-22
1518.13	0
1529.43	-8.5
1540.69	-16
1551.91	-23
1563.11	-6
1574.26	-7
1585.39	-30.5
1596.48	-16
1607.53	-9.5
1618.55	-19.5
1629.54	-36
1640.49	9.5
1651.41	64
1662.29	26
1673.14	-6.5
1683.95	-18
1694.74	-28.5
1705.48	-26
1716.2	-11
1726.88	-13.5
1737.52	-22
1748.13	-6
1758.71	-23
1769.25	-30.5
1779.76	-39
1790.24	-17
1800.68	-20
1811.09	-39
1821.47	-15
1831.81	-29.5
1842.12	-16
1852.4	-10
1862.64	-29.5
1872.85	-25
1883.02	-31
1893.17	-15.5
1903.28	-35
1913.35	-35.5
1923.4	-26
1933.41	-26.5
1943.38	-51
1953.33	-14.5
1963.24	-17.5
1973.12	-42
1982.96	-23
1992.78	-26.5
2002.56	-25.8404
2012.3	-31.4284
2022.02	-26.3768
2031.7	-27.3836
2041.35	-35.0764
2050.97	-25.0886
2060.55	-16.093
2070.1	-16.45
2079.62	-10.5586
2088.81	-14.5
2098.7	-20
2108.56	-12
2118.4	-18
2128.2	-23.5
2137.98	-18.5
2147.73	-9.5
2157.45	-20
2167.15	-25
2176.81	-22
2186.45	-30
2196.06	-23
2205.64	-25.5
2215.2	-24.5
2224.72	-35.5
2234.22	-34
2243.69	-21.5
2253.13	-33.5
2262.55	-50
2271.93	-33.5
2281.29	-40.5
2290.62	-47
2299.93	-21
2309.2	-27
2318.45	-31.5
2327.67	-56
2336.86	-41
2346.03	-33.5
2355.17	-35
2364.28	-38
2373.36	-46.5
2382.41	-46
2391.44	-42
2400.44	-29
2409.41	-33.5
2418.35	-33
2427.27	-28
2436.16	-31
2445.02	-41
2453.86	-22
2462.66	-35.5
2471.44	-35
2480.19	-43
2488.92	-26.5
2497.62	-43
2506.29	-46
2514.93	-41
2523.55	-25.5
2532.14	-44
2540.7	-40
2549.23	-22.5
2557.74	-28
2566.22	-39
2574.67	-35.5
2583.1	-29
2591.5	-34
2599.87	-31
2608.21	-25.5
2616.53	-28.5
2624.82	-40
2633.08	-26
2641.32	-25
2649.53	-20
2657.71	-30.5
2665.87	-32
2674	-30
2682.1	-20
2690.18	-27
2698.23	-34.9633
2706.25	-31.1881
2714.25	-28.5539
2722.22	-30.3022
2730.16	-20.4856
2738.07	-25.2297
2745.96	-23.7347
2753.83	-16.9432
2761.66	-16.1998
2769.81	-24
2778.03	-15
2786.22	-13
2794.39	-20
2802.54	-21.5
2810.66	-25
2818.76	-16.5
2826.84	-21
2834.9	-21
2842.93	-5
2850.94	1
2858.92	-16
2866.89	-11
2874.83	-8.5
2882.75	-21
2890.64	-15
2898.51	-15.5
2906.36	-36
2914.19	-23
2921.99	-6
2929.77	-17.5
2937.53	-38
2945.26	-23
2952.98	-20.5
2960.66	-53
2968.33	-35.5
2975.97	-27.5
2983.59	-31
2991.19	-25.5
2998.77	-31.5
3006.32	-37.5
3013.85	-34
3021.35	-25.5
3028.84	-45
3036.3	-46.5
3043.73	-30.5
3051.15	-30.5
3058.54	-36
3065.91	-40
3073.26	-33.5
3080.58	-41
3087.88	-29
3095.16	-26.5
3102.42	-21
3109.65	-42
3116.86	-36.5
3124.05	-20
3131.22	-25
3138.36	-37.5
3145.48	-31
3152.58	-37
3159.65	-33
3166.7	-35
3173.73	-27.5
3180.74	-32.5
3187.72	-26
3194.69	-34
3199.89	-43

File: Oil_BHT_0_08_50Xlens_785_1200grating_25%_acc3_acq3s_AE50000_1.txt
100.582	458
115.981	393
131.333	331
146.637	293.5
161.896	249
177.107	221
192.272	180.5
207.39	183
222.462	158
237.486	139.5
252.465	225
267.398	154
282.283	138
297.123	103
311.917	110
326.665	111
341.367	92.5
356.023	87.5
370.633	76
385.198	82
399.717	61
414.191	63.5
428.619	51
443.001	60
457.339	74.5
471.631	48
485.877	47.5
500.079	47
514.236	41
528.348	23
542.414	37
556.436	27
570.414	24
584.347	30
598.234	37
612.078	26.5
625.877	24
639.632	13.5
653.342	30
667.009	20
680.631	5
694.21	29.5
707.744	22
721.234	28
734.681	26.5
748.083	26.5
761.443	26.5
774.758	9
788.03	15.5
801.259	20
814.444	19
827.586	41.5
840.685	76.5
853.74	30
866.753	63.5
879.722	45.5
892.649	51
905.533	45
918.374	36.5
931.173	38
943.928	28
956.641	31
969.312	33.5
981.94	20
994.527	11
1007.07	26
1019.57	18.5
1032.03	24.5
1044.45	25
1056.83	20
1069.16	30
1081.45	43.5
1093.7	41.5
1105.91	35
1118.08	19.5
1130.2	12.5
1142.29	13
1154.33	-0.609545
1166.33	-0.227729
1178.3	14.9506
1190.22	1.00231
1202.09	11.0617
1213.93	22.7987
1225.73	16.8004
1237.49	24.0345
1249.2	41.1346
1260.79	59
1272.85	70
1284.88	46
1296.88	65.5
1308.84	53
1320.77	34
1332.66	21
1344.51	21.5
1356.33	25
1368.12	30.5
1379.86	18
1391.58	20
1403.26	9
1414.9	15
1426.51	31
1438.09	95
1449.63	58
1461.13	21
1472.6	4.5
1484.03	2.5
1495.43	-11
1506.8	-10.5
1518.13	-8
1529.43	-18
1540.69	-14
1551.91	-20
1563.11	-13.5
1574.26	-1
1585.39	-15.5
1596.48	-10
1607.53	-21
1618.55	-19.5
1629.54	5
1640.49	-18
1651.41	55
1662.29	28.5
1673.14	-11
1683.95	-20.5
1694.74	-40.5
1705.48	-40
1716.2	-23.5
1726.88	-25
1737.52	-6.5
1748.13	-13
1758.71	-28
1769.25	7
1779.76	-26
1790.24	-29
1800.68	-21.5
1811.09	-32
1821.47	-34
1831.81	-34.5
1842.12	-28.5
1852.4	-22.5
1862.64	-19.5
1872.85	-29.5
1883.02	-31
1893.17	-25.5
1903.28	-30
1913.35	-13.5
1923.4	-25
1933.41	-20
1943.38	-20
1953.33	-25
1963.24	-27.5
1973.12	-27
1982.96	-31
1992.78	-28
2002.56	-32.2017
2012.3	-27.5779
2022.02	-20.6749
2031.7	-22.0344
2041.35	-22.9126
2050.97	-28.427
2060.55	-24.4504
2070.1	-22.8777
2079.62	-11.9321
2088.81	-1.5
2098.7	-17.5
2108.56	-25
2118.4	-15
2128.2	-14
2137.98	-35
2147.73	-9
2157.45	-26
2167.15	-22
2176.81	-21.5
2186.45	-18.5
2196.06	-15
2205.64	-25
2215.2	-28.5
2224.72	-28
2234.22	-25.5
2243.69	-40
2253.13	-29
2262.55	-22.5
2271.93	-39.5
2281.29	-28
2290.62	-18
2299.93	-37
2309.2	-35
2318.45	-22.5
2327.67	-42
2336.86	-47
2346.03	-28.5
2355.17	-30
2364.28	-39.5
2373.36	-32
2382.41	-23
2391.44	-44
2400.44	-38.5
2409.41	-20
2418.35	-38
2427.27	-40
2436.16	-29
2445.02	-26
2453.86	-39
2462.66	-50.5
2471.44	-27.5
2480.19	-29
2488.92	-45
2497.62	-30
2506.29	-26
2514.93	-33.5
2523.55	-34
2532.14	-21.5
2540.7	-46.5
2549.23	-46
2557.74	-29
2566.22	-34
2574.67	-47.5
2583.1	-27
2591.5	-21.5
2599.87	-35
2608.21	-28
2616.53	-36
2624.82	-44
2633.08	-44
2641.32	-37.5
2649.53	-33
2657.71	-52
2665.87	-31
2674	-29
2682.1	-41
2690.18	-23
2698.23	-21.1726
2706.25	-37.1214
2714.25	-32.9319
2722.22	-25.9032
2730.16	-24.6004
2738.07	-26.026
2745.96	-21.3795
2753.83	-14.4221
2761.66	-17.8786
2769.81	-8
2778.03	-10
2786.22	-18
2794.39	-7
2802.54	-19
2810.66	-16.5
2818.76	-7
2826.84	-17.5
2834.9	-19
2842.93	-47
2850.94	0
2858.92	2
2866.89	-15.5
2874.83	-21
2882.75	-16
2890.64	-27
2898.51	-36
2906.36	-12.5
2914.19	-15.5
2921.99	-35
2929.77	-23
2937.53	-12.5
2945.26	-33
2952.98	-47
2960.66	-21.5
2968.33	-25
2975.97	-37
2983.59	-31
2991.19	-24.5
2998.77	-46
3006.32	-36
3013.85	-18
3021.35	-29
3028.84	-33
3036.3	-35
3043.73	-33
3051.15	-46
3058.54	-38.5
3065.91	-41
3073.26	-34.5
3080.58	-36
3087.88	-42.5
3095.16	-37
3102.42	-26
3109.65	-30
3116.86	-42
3124.05	-49
3131.22	-43
3138.36	-37.5
3145.48	-38
3152.58	-32
3159.65	-39
3166.7	-34
3173.73	-38
3180.74	-43.5
3187.72	-28.5
3194.69	-36
3199.89	-31.5

File: Oil_BHT_0_8_50Xlens_785_1200grating_25%_acc3_acq3s_AE50000_1.txt
100.582	364
115.981	336
131.333	290.5
146.637	255
161.896	208
177.107	167
192.272	111
207.39	126.5
222.462	133
237.486	114.5
252.465	182
267.398	115.5
282.283	105.5
297.123	90
311.917	68.5
326.665	82.5
341.367	70
356.023	56
370.633	69
385.198	51
399.717	39
414.191	42
428.619	30
443.001	43
457.339	28
471.631	41
485.877	31
500.079	11
514.236	29
528.348	27
542.414	25.5
556.436	26
570.414	25.5
584.347	16.5
598.234	17
612.078	25
625.877	17
639.632	-4
653.342	3.5
667.009	-3
680.631	6
694.21	15
707.744	6
721.234	18.5
734.681	6
748.083	9
761.443	13.5
774.758	8.5
788.03	11.5
801.259	11
814.444	5
827.586	19
840.685	46.5
853.74	39.5
866.753	33
879.722	17
892.649	32
905.533	19
918.374	13
931.173	37.5
943.928	22.5
956.641	16
969.312	33
981.94	12
994.527	7
1007.07	8
1019.57	24
1032.03	18.5
1044.45	5
1056.83	24
1069.16	34.5
1081.45	31.5
1093.7	20
1105.91	18
1118.08	21.5
1130.2	-8
1142.29	-4
1154.33	-0.532655
1166.33	-14.9009
1178.3	12.3924
1190.22	8.80787
1202.09	11.6466
1213.93	10.3324
1225.73	22.0452
1237.49	27.1922
1249.2	55.5934
1260.79	50
1272.85	58
1284.88	49.5
1296.88	58
1308.84	49
1320.77	56
1332.66	41
1344.51	35
1356.33	43
1368.12	35.5
1379.86	19
1391.58	30
1403.26	40.5
1414.9	20.5
1426.51	34.5
1438.09	80
1449.63	54
1461.13	39
1472.6	22
1484.03	15
1495.43	-6.5
1506.8	-6
1518.13	1
1529.43	3
1540.69	-24
1551.91	-10
1563.11	-2
1574.26	-23
1585.39	-13.5
1596.48	-0.5
1607.53	-14
1618.55	-22.5
1629.54	-8.5
1640.49	11
1651.41	34.5
1662.29	17.5
1673.14	1.5
1683.95	-10.5
1694.74	-13
1705.48	-16
1716.2	-17
1726.88	-23
1737.52	-21.5
1748.13	6
1758.71	-26
1769.25	-14.5
1779.76	-3.5
1790.24	-33
1800.68	-26.5
1811.09	-26
1821.47	-2.5
1831.81	-27
1842.12	-22.5
1852.4	-16
1862.64	-21.5
1872.85	-21.5
1883.02	-33
1893.17	-23.5
1903.28	-41
1913.35	-18
1923.4	-22
1933.41	-13
1943.38	-35
1953.33	-12
1963.24	-23
1973.12	-33
1982.96	-14
1992.78	-16.5
2002.56	-40.8257
2012.3	-32.0599
2022.02	-26.9977
2031.7	-24.6826
2041.35	-30.9626
2050.97	-21.4296
2060.55	-18.8807
2070.1	-12.1822
2079.62	-14.1947
2088.81	-25
2098.7	-17.5
2108.56	-4
2118.4	-24
2128.2	-22
2137.98	-7
2147.73	-4
2157.45	-14.5
2167.15	-26.5
2176.81	-21
2186.45	-16
2196.06	-35
2205.64	-30.5
2215.2	-34
2224.72	-44.5
2234.22	-37
2243.69	-20.5
2253.13	-35
2262.55	-34.5
2271.93	-24
2281.29	-35
2290.62	-35
2299.93	-19.5
2309.2	-23
2318.45	-22.5
2327.67	-39.5
2336.86	-25.5
2346.03	-17
2355.17	-37
2364.28	-37.5
2373.36	-31
2382.41	-36
2391.44	-42
2400.44	-21.5
2409.41	-25
2418.35	-42
2427.27	-37.5
2436.16	-11.5
2445.02	-29
2453.86	-29.5
2462.66	-21
2471.44	-33
2480.19	-38
2488.92	-32
2497.62	-42
2506.29	-31.5
2514.93	-36
2523.55	-45
2532.14	-36
2540.7	-30
2549.23	-25.5
2557.74	-29
2566.22	-43
2574.67	-34.5
2583.1	-27
2591.5	-22
2599.87	-31
2608.21	-24
2616.53	-31
2624.82	-44
2633.08	-26
2641.32	-34
2649.53	-40.5
2657.71	-35
2665.87	-28
2674	-33
2682.1	-31
2690.18	-23
2698.23	-39.1053
2706.25	-41.2709
2714.25	-23.1449
2722.22	-17.2547
2730.16	-28.7245
2738.07	-26.4489
2745.96	-26.9182
2753.83	-35.4377
2761.66	-34.1248
2769.81	-6
2778.03	-18
2786.22	-32
2794.39	-16
2802.54	-13.5
2810.66	-24
2818.76	-26
2826.84	-8.5
2834.9	-17.5
2842.93	-23
2850.94	-13.5
2858.92	-8.5
2866.89	-35.5
2874.83	-6
2882.75	-21
2890.64	-23
2898.51	-40
2906.36	-8
2914.19	-5
2921.99	-25
2929.77	-24
2937.53	-22
2945.26	-28
2952.98	-32.5
2960.66	-20.5
2968.33	-51
2975.97	-45.5
2983.59	-24.5
2991.19	-27
2998.77	-40.5
3006.32	-26.5
3013.85	-30.5
3021.35	-55
3028.84	-29.5
3036.3	-36
3043.73	-31
3051.15	-35.5
3058.54	-24
3065.91	-36
3073.26	-46
3080.58	-38
3087.88	-30
3095.16	-39
3102.42	-34.5
3109.65	-22.5
3116.86	-26.5
3124.05	-44.5
3131.22	-46
3138.36	-16
3145.48	-31.5
3152.58	-22
3159.65	-18
3166.7	-28
3173.73	-36
3180.74	-42
3187.72	-24.5
3194.69	-37
3199.89	-31

File: Oil_BHT_0_8_Aged_50Xlens_785_1200grating_25%_acc3_acq3s_AE50000_1.txt
100.582	377
115.981	309
131.333	255
146.637	212
161.896	184.5
177.107	135
192.272	106
207.39	126
222.462	126.5
237.486	96.5
252.465	164.5
267.398	111
282.283	78
297.123	59
311.917	59
326.665	59.5
341.367	40.5
356.023	53
370.633	51
385.198	37
399.717	15
414.191	30
428.619	32.5
443.001	19
457.339	15
471.631	34
485.877	11
500.079	-8
514.236	25
528.348	17.5
542.414	-7
556.436	7
570.414	12
584.347	-7.5
598.234	3
612.078	5
625.877	8
639.632	-9
653.342	-5
667.009	0.5
680.631	3
694.21	-0.5
707.744	9
721.234	14
734.681	-1
748.083	16.5
761.443	1
774.758	4.5
788.03	2
801.259	8
814.444	3
827.586	28
840.685	44.5
853.74	27.5
866.753	32
879.722	47
892.649	20.5
905.533	-1
918.374	28
931.173	32.5
943.928	4.5
956.641	7
969.312	24
981.94	2
994.527	4
1007.07	-1
1019.57	19
1032.03	0
1044.45	-2
1056.83	20
1069.16	20
1081.45	-3
1093.7	28
1105.91	21
1118.08	-4
1130.2	-2
1142.29	6
1154.33	-4.44214
1166.33	-15.9547
1178.3	-4.5978
1190.22	6.47407
1202.09	1.28963
1213.93	3.20218
1225.73	10.5258
1237.49	12.0204
1249.2	41.3246
1260.79	65
1272.85	54.5
1284.88	28
1296.88	60.5
1308.84	49.5
1320.77	23.5
1332.66	33.5
1344.51	9
1356.33	14
1368.12	20
1379.86	13
1391.58	-1
1403.26	1
1414.9	19
1426.51	30
1438.09	77
1449.63	41.5
1461.13	30
1472.6	2
1484.03	-5.5
1495.43	-5
1506.8	-37
1518.13	-11
1529.43	-10.5
1540.69	-15
1551.91	-17
1563.11	-36.5
1574.26	0
1585.39	-21
1596.48	-24
1607.53	-7.5
1618.55	-23.5
1629.54	-20.5
1640.49	-16.5
1651.41	43
1662.29	9.5
1673.14	-22
1683.95	-10.5
1694.74	-17
1705.48	-31
1716.2	-24.5
1726.88	-14
1737.52	-27
1748.13	-17
1758.71	-11.5
1769.25	-20
1779.76	-31
1790.24	-22
1800.68	-29.5
1811.09	-26
1821.47	-25
1831.81	-19.5
1842.12	-29.5
1852.4	-30.5
1862.64	-19.5
1872.85	-23
1883.02	-34
1893.17	-17
1903.28	-21
1913.35	-32
1923.4	-24
1933.41	-23
1943.38	-40
1953.33	-42.5
1963.24	-21.5
1973.12	-27.5
1982.96	-19
1992.78	-35.5
2002.56	-21.139
2012.3	-29.0798
2022.02	-24.1568
2031.7	-20.3479
2041.35	-27.4716
2050.97	-24.0987
2060.55	-22.2561
2070.1	-11.5818
2079.62	-10.2404
2088.81	-23
2098.7	-13
2108.56	-12
2118.4	-24
2128.2	-22
2137.98	-15
2147.73	-9.5
2157.45	-12
2167.15	-31
2176.81	-12
2186.45	-24.5
2196.06	-20
2205.64	-34
2215.2	-23
2224.72	-27
2234.22	-25
2243.69	-36
2253.13	-33.5
2262.55	-33
2271.93	-35
2281.29	-36.5
2290.62	-20
2299.93	-34
2309.2	-36.5
2318.45	-26
2327.67	-24
2336.86	-26
2346.03	-30
2355.17	-28
2364.28	-37.5
2373.36	-35.5
2382.41	-38
2391.44	-34
2400.44	-39
2409.41	-34
2418.35	-34
2427.27	-36
2436.16	-53
2445.02	-40
2453.86	-47
2462.66	-26
2471.44	-37.5
2480.19	-33
2488.92	-37
2497.62	-24
2506.29	-34
2514.93	-48
2523.55	-45.5
2532.14	-32
2540.7	-29
2549.23	-32.5
2557.74	-33.5
2566.22	-51
2574.67	-24.5
2583.1	-37
2591.5	-34
2599.87	-50
2608.21	-46
2616.53	-34
2624.82	-39
2633.08	-30.5
2641.32	-26
2649.53	-46
2657.71	-35.5
2665.87	-34
2674	-22
2682.1	-27
2690.18	-45
2698.23	-27.7819
2706.25	-30.5796
2714.25	-25.2904
2722.22	-26.8168
2730.16	-35.7502
2738.07	-28.3892
2745.96	-32.6807
2753.83	-23.6068
2761.66	-4.98619
2769.81	-8
2778.03	-24
2786.22	-15
2794.39	-5.5
2802.54	-36
2810.66	-25
2818.76	-15
2826.84	-20
2834.9	-23.5
2842.93	-13
2850.94	5
2858.92	-19
2866.89	-18.5
2874.83	-13
2882.75	-15
2890.64	-32
2898.51	-18
2906.36	-15
2914.19	-42.5
2921.99	-45
2929.77	-32
2937.53	-20
2945.26	-32.5
2952.98	-34
2960.66	-31
2968.33	-50.5
2975.97	-34.5
2983.59	-32
2991.19	-29.5
2998.77	-48
3006.32	-34.5
3013.85	-22
3021.35	-39
3028.84	-41.5
3036.3	-38
3043.73	-40.5
3051.15	-32
3058.54	-19.5
3065.91	-36
3073.26	-35.5
3080.58	-31.5
3087.88	-38.5
3095.16	-35.5
3102.42	-37.5
3109.65	-29.5
3116.86	-42.5
3124.05	-29
3131.22	-26
3138.36	-40
3145.48	-46
3152.58	-23.5
3159.65	-41
3166.7	-44
3173.73	-37
3180.74	-30
3187.72	-49.5
3194.69	-45.5
3199.89	-34

File: Oil_BHT_0_008Au_sub.txt
100.582	560
115.981	435
131.333	397.5
146.637	308.5
161.896	259.5
177.107	218.5
192.272	180
207.39	167
222.462	185.5
237.486	143.5
252.465	164.5
267.398	147
282.283	115
297.123	105.5
311.917	88.5
326.665	105
341.367	56.5
356.023	63
370.633	67
385.198	73.5
399.717	70
414.191	57
428.619	52.5
443.001	42.5
457.339	45.5
471.631	38
485.877	27
500.079	25
514.236	18
528.348	13
542.414	16
556.436	24
570.414	20
584.347	15
598.234	12.5
612.078	30
625.877	14.5
639.632	16
653.342	0
667.009	7
680.631	-10
694.21	3
707.744	20
721.234	30
734.681	18
748.083	26
761.443	15
774.758	4
788.03	17
801.259	8
814.444	21
827.586	48.5
840.685	72
853.74	58.5
866.753	71
879.722	43
892.649	59
905.533	32
918.374	40.5
931.173	35
943.928	45.5
956.641	31.5
969.312	41
981.94	26
994.527	10
1007.07	20
1019.57	16
1032.03	12.5
1044.45	27
1056.83	35
1069.16	58
1081.45	52
1093.7	32
1105.91	27.5
1118.08	29.5
1130.2	-8
1142.29	17.5
1154.33	-5.27693
1166.33	-12.6164
1178.3	7.97859
1190.22	-0.437413
1202.09	6.74548
1213.93	13.0745
1225.73	15.9795
1237.49	31.3831
1249.2	58.0178
1260.79	78
1272.85	61
1284.88	35
1296.88	80.5
1308.84	52
1320.77	27
1332.66	16.5
1344.51	14
1356.33	-2
1368.12	7
1379.86	6
1391.58	-8.5
1403.26	-12.5
1414.9	10.5
1426.51	24
1438.09	88
1449.63	60.5
1461.13	51
1472.6	-2
1484.03	-12
1495.43	-16.5
1506.8	-17.5
1518.13	-21.5
1529.43	-24
1540.69	-23.5
1551.91	-20
1563.11	-21
1574.26	-33
1585.39	-26
1596.48	-37
1607.53	-15
1618.55	-9
1629.54	-18
1640.49	-13.5
1651.41	51.5
1662.29	19.5
1673.14	-21
1683.95	-26
1694.74	-24.5
1705.48	-23
1716.2	-31.5
1726.88	-30
1737.52	-24
1748.13	-25
1758.71	-2.5
1769.25	-19
1779.76	-36.5
1790.24	-34
1800.68	-21.5
1811.09	-33
1821.47	-29.5
1831.81	-29
1842.12	-29
1852.4	-41
1862.64	-22.5
1872.85	-17
1883.02	-46
1893.17	-33.5
1903.28	-23
1913.35	-35
1923.4	-20
1933.41	-28
1943.38	-40
1953.33	-41
1963.24	-23
1973.12	-31
1982.96	-22.5
1992.78	-35
2002.56	-30.5164
2012.3	-29.1878
2022.02	-47.1058
2031.7	-23.2051
2041.35	-21.239
2050.97	-28.0125
2060.55	-8.64316
2070.1	-20.315
2079.62	-16.6514
2088.81	-32
2098.7	-9
2108.56	3
2118.4	-23.5
2128.2	-15
2137.98	-8.5
2147.73	-12
2157.45	-13
2167.15	-21.5
2176.81	-22
2186.45	-32
2196.06	-21.5
2205.64	-29
2215.2	-34
2224.72	-35
2234.22	-16.5
2243.69	-24.5
2253.13	-19
2262.55	-33
2271.93	-29.5
2281.29	-31
2290.62	-32.5
2299.93	-25
2309.2	-31
2318.45	-48.5
2327.67	-30.5
2336.86	-25.5
2346.03	-33
2355.17	-39
2364.28	-31.5
2373.36	-42
2382.41	-48
2391.44	-29
2400.44	-37
2409.41	-34
2418.35	-30
2427.27	-37
2436.16	-33
2445.02	-38.5
2453.86	-30.5
2462.66	-43.5
2471.44	-49.5
2480.19	-23
2488.92	-40
2497.62	-33
2506.29	-43
2514.93	-38
2523.55	-27
2532.14	-27.5
2540.7	-17
2549.23	-25.5
2557.74	-33.5
2566.22	-23
2574.67	-37.5
2583.1	-35.5
2591.5	-35
2599.87	-36.5
2608.21	-33
2616.53	-32
2624.82	-24
2633.08	-22
2641.32	-36.5
2649.53	-24.5
2657.71	-26.5
2665.87	-37
2674	-25
2682.1	-28
2690.18	-39
2698.23	-29.1286
2706.25	-26.2756
2714.25	-28.1449
2722.22	-32.7606
2730.16	-24.7328
2738.07	-23.6323
2745.96	-18.7482
2753.83	-27.3255
2761.66	-18.423
2769.81	-19.5
2778.03	-23
2786.22	-6.5
2794.39	-24
2802.54	-28.5
2810.66	-7.5
2818.76	-27
2826.84	-23
2834.9	-17
2842.93	-13
2850.94	-9
2858.92	-6
2866.89	-18.5
2874.83	-1.5
2882.75	-24.5
2890.64	-4.5
2898.51	-12
2906.36	-30
2914.19	-20
2921.99	-9
2929.77	-18
2937.53	-24
2945.26	-17.5
2952.98	-21.5
2960.66	-31
2968.33	-34.5
2975.97	-16.5
2983.59	-30
2991.19	-49
2998.77	-29.5
3006.32	-36
3013.85	-37
3021.35	-28
3028.84	-34.5
3036.3	-37.5
3043.73	-32
3051.15	-24
3058.54	-36.5
3065.91	-43
3073.26	-26.5
3080.58	-37
3087.88	-30
3095.16	-30
3102.42	-40
3109.65	-46
3116.86	-49
3124.05	-22.5
3131.22	-29.5
3138.36	-39
3145.48	-25
3152.58	-47
3159.65	-27
3166.7	-26.5
3173.73	-33.5
3180.74	-38
3187.72	-27
3194.69	-35
3199.89	-40